Folder: IEM-Database-Project/scraping_pipeline/output/txt/rg

Note: scraping_pipeline/output/txt/rg/7Hz Timeless (350 Mesh, stock tuning foam sideways, Super Thin HS Foam inner vent) L.txt
* Measurement data measured by REW V5.20.4
* Source: Input device not selected, no input selected, L, volume: no control
* Format: 256k Log Swept Sine, 1 sweep at -12,0 dBFS with no timing reference
* Dated: 2022-jul-21 01:35:51
* REW Settings:
*  C-weighting compensation: Off
*  Target level: 75.0 dB
* Note: stock tips (red/black) tips M + stock cable 4.4mm  350 mesh on nozzle + stock tuning foams placed sideways + Super thin Hs foam on inner vent  Left
* Measurement: 7Hz Timeless350meshsthsivv2
* Smoothing: 1/48 octave
* Frequency Step: 1/48 octave
* Start Frequency: 20.300 Hz
*
* Freq(Hz)	SPL(dB)	Phase(degrees)
20.299999	89.703	18.6086
20.600000	89.701	18.1010
20.900000	89.695	17.5913
21.200001	89.688	17.0685
21.400000	89.688	16.7099
21.799999	89.692	15.9769
22.000000	89.694	15.6096
22.400000	89.697	14.8939
22.700001	89.699	14.3877
23.000000	89.701	13.9136
23.299999	89.703	13.4650
23.600000	89.705	13.0302
24.000000	89.705	12.4513
24.299999	89.702	12.0076
24.700001	89.695	11.4045
25.000000	89.687	10.9524
25.400000	89.677	10.3619
25.799999	89.673	9.7875
26.200001	89.672	9.2217
26.500000	89.672	8.8024
26.900000	89.666	8.2611
27.200001	89.655	7.8823
27.600000	89.634	7.4233
28.000000	89.612	6.9963
28.500000	89.589	6.4232
29.000000	89.567	5.7183
29.500000	89.538	4.9091
30.000000	89.502	4.1408
30.400000	89.480	3.6401
30.700001	89.472	3.3353
31.100000	89.472	2.9811
31.500000	89.479	2.6313
32.000000	89.482	2.1485
32.500000	89.470	1.6253
33.000000	89.444	1.1012
33.500000	89.417	0.5864
34.000000	89.395	0.0669
34.500000	89.378	-0.4588
35.000000	89.362	-0.9725
35.500000	89.344	-1.4561
36.000000	89.321	-1.9082
36.500000	89.295	-2.3387
37.000000	89.268	-2.7628
37.500000	89.244	-3.1953
38.200001	89.215	-3.8244
38.700001	89.193	-4.2745
39.500000	89.150	-4.9481
40.000000	89.122	-5.3427
40.599998	89.089	-5.8196
41.200001	89.059	-6.3199
41.799999	89.031	-6.8246
42.500000	88.999	-7.3633
43.099998	88.976	-7.7654
43.700001	88.953	-8.1541
44.400002	88.922	-8.6415
45.000000	88.892	-9.0780
45.500000	88.868	-9.4334
46.200001	88.841	-9.9210
46.799999	88.819	-10.3404
47.500000	88.782	-10.8048
48.200001	88.738	-11.2198
48.700001	88.710	-11.5131
49.400002	88.681	-11.9771
50.000000	88.657	-12.4203
50.799999	88.616	-12.9642
51.500000	88.572	-13.3156
52.200001	88.530	-13.6097
53.000000	88.486	-14.0113
53.799999	88.439	-14.4799
54.500000	88.399	-14.8699
55.200001	88.363	-15.2301
56.000000	88.317	-15.6237
57.000000	88.256	-16.0994
58.000000	88.198	-16.5865
59.000000	88.140	-17.0564
60.000000	88.079	-17.5020
60.799999	88.033	-17.8850
61.500000	87.993	-18.2292
62.200001	87.954	-18.5338
63.000000	87.912	-18.8295
64.000000	87.856	-19.2071
65.000000	87.792	-19.5852
66.000000	87.736	-19.9754
67.000000	87.680	-20.3844
68.000000	87.627	-20.7610
69.000000	87.576	-21.1515
70.000000	87.519	-21.5025
71.000000	87.460	-21.8480
72.000000	87.396	-22.1875
73.000000	87.338	-22.4725
74.000000	87.287	-22.7644
75.000000	87.229	-23.0893
76.199997	87.163	-23.4746
77.500000	87.105	-23.8253
78.800003	87

Note: scraping_pipeline/output/txt/rg/7Hz Timeless (350 Mesh, stock tuning foam, Super Thin HS Foam inner vent) L.txt
* Measurement data measured by REW V5.20.4
* Source: Input device not selected, no input selected, L, volume: no control
* Format: 256k Log Swept Sine, 1 sweep at -12,0 dBFS with no timing reference
* Dated: 2022-jul-20 20:35:15
* REW Settings:
*  C-weighting compensation: Off
*  Target level: 75.0 dB
* Note: stock tips (red/black) tips M + stock cable 4.4mm  350 mesh on nozzle + stock tuning foams + Super thin Hs foam on inner vent  Left
* Measurement: 7Hz Timeless 350mesh sthsiv
* Smoothing: 1/48 octave
* Frequency Step: 1/48 octave
* Start Frequency: 20.300 Hz
*
* Freq(Hz)	SPL(dB)	Phase(degrees)
20.299999	90.365	18.3597
20.600000	90.362	17.8060
20.900000	90.354	17.2696
21.200001	90.346	16.7403
21.400000	90.344	16.3852
21.799999	90.347	15.6666
22.000000	90.350	15.3044
22.400000	90.356	14.5844
22.700001	90.359	14.0612
23.000000	90.362	13.5630
23.299999	90.363	13.0903
23.600000	90.365	12.6351
24.000000	90.365	12.0347
24.299999	90.364	11.5726
24.700001	90.356	10.9317
25.000000	90.347	10.4408
25.400000	90.329	9.7963
25.799999	90.313	9.1889
26.200001	90.303	8.6223
26.500000	90.302	8.2127
26.900000	90.302	7.6707
27.200001	90.300	7.2654
27.600000	90.292	6.7409
28.000000	90.276	6.2595
28.500000	90.252	5.7231
29.000000	90.232	5.1914
29.500000	90.218	4.5758
30.000000	90.202	3.8631
30.400000	90.188	3.2773
30.700001	90.175	2.8624
31.100000	90.159	2.3618
31.500000	90.146	1.9110
32.000000	90.134	1.3730
32.500000	90.119	0.8261
33.000000	90.097	0.2744
33.500000	90.071	-0.2628
34.000000	90.047	-0.7850
34.500000	90.027	-1.3071
35.000000	90.010	-1.8330
35.500000	89.990	-2.3487
36.000000	89.967	-2.8400
36.500000	89.942	-3.3072
37.000000	89.916	-3.7642
37.500000	89.890	-4.2254
38.200001	89.856	-4.8839
38.700001	89.830	-5.3492
39.500000	89.790	-6.0508
40.000000	89.765	-6.4648
40.599998	89.735	-6.9519
41.200001	89.704	-7.4321
41.799999	89.671	-7.9020
42.500000	89.635	-8.4477
43.099998	89.605	-8.9227
43.700001	89.573	-9.3897
44.400002	89.535	-9.9060
45.000000	89.507	-10.3380
45.500000	89.485	-10.7063
46.200001	89.453	-11.2259
46.799999	89.423	-11.6487
47.500000	89.386	-12.1041
48.200001	89.349	-12.5450
48.700001	89.323	-12.8705
49.400002	89.283	-13.3503
50.000000	89.245	-13.7632
50.799999	89.194	-14.2658
51.500000	89.154	-14.6627
52.200001	89.116	-15.0592
53.000000	89.068	-15.5152
53.799999	89.016	-15.9490
54.500000	88.971	-16.3238
55.200001	88.928	-16.7028
56.000000	88.879	-17.1274
57.000000	88.819	-17.6507
58.000000	88.755	-18.1559
59.000000	88.692	-18.6346
60.000000	88.630	-19.1182
60.799999	88.580	-19.4909
61.500000	88.538	-19.8051
62.200001	88.499	-20.1204
63.000000	88.449	-20.4642
64.000000	88.382	-20.8455
65.000000	88.313	-21.2378
66.000000	88.249	-21.6434
67.000000	88.199	-22.0530
68.000000	88.145	-22.4485
69.000000	88.082	-22.7867
70.000000	88.019	-23.1575
71.000000	87.954	-23.5358
72.000000	87.893	-23.8808
73.000000	87.834	-24.2356
74.000000	87.772	-24.5709
75.000000	87.716	-24.8553
76.199997	87.656	-25.1971
77.500000	87.583	-25.5947
78.800003	87.509	-25.965

Note: README.md
# IEM Database Project
Databases and Information Systems (NDAB21010U) Project

### Credits:
Victor Villumsen Bergien | TCG780 | tcg780@alumni.ku.dk

### Introduction:
This project consists of a comprehensive (possibly the largest) database of IEM's (In-Ear Monitors).
Each IEM has the following data:

- IEM Name
- Brand
- Price ($)
- ANC Capability
- Sensitivity (dB/mW)
- Impedance (Î©)
- \# of Drivers
- Driver Configuration
- Connection Type
- Microphone
- IP Rating	
- Measurement(s)
- Misc Measurement(s) (DSP Modes)
- \# of Measurements
- Contributing Reviewers

From which the following can be calculated:

- Average Measurement
- Preference %
- Average  Error (dB)
- Slope of Error
- STDEV of Error
- Variance

### Dependencies:

### Installation:

### Note:

File: KZ EDX Pro (2 Low-Density Tuning Foams) L.txt
* Measurement data measured by REW V5.20.4
* Source: Input device not selected, no input selected, L, volume: no control
* Format: 256k Log Swept Sine, 1 sweep at -12,0 dBFS with no timing reference
* Dated: 2021-dec-13 17:41:31
* REW Settings:
*  C-weighting compensation: Off
*  Target level: 75.0 dB
* Note: Stock tips M + stock cable 3.5mm  Left  2 Low-density tuning foam
* Measurement: KZ EDX Pro 2low-DensityFoam
* Smoothing: 1/12 octave
* Frequency Step: 1/48 octave
* Start Frequency: 20.300 Hz
*
* Freq(Hz)	SPL(dB)	Phase(degrees)
20.3	150.422	6.6699
20.9	150.396	6.0283
21.4	150.366	5.2185
22	150.342	4.2305
22.7	150.321	3.1019
23.3	150.299	2.2170
24	150.268	1.2917
24.7	150.237	0.3747
25.4	150.202	-0.6066
26.2	150.154	-1.7250
26.9	150.109	-2.6327
27.6	150.058	-3.4850
28.5	149.986	-4.5164
29.5	149.920	-5.6581
30.4	149.874	-6.7418
31.1	149.836	-7.5496
32	149.785	-8.5154
33	149.725	-9.5621
34	149.661	-10.5351
35	149.595	-11.4749
36	149.524	-12.4268
37	149.462	-13.3028
38.2	149.360	-14.1009
39.5	149.239	-14.6938
40.6	149.183	-15.7763
41.8	149.114	-17.1713
43.1	149.036	-18.2126
44.4	148.947	-19.1181
45.5	148.873	-19.9008
46.8	148.789	-20.7852
48.2	148.691	-21.6756
49.4	148.601	-22.4197
50.8	148.498	-23.2470
52.2	148.400	-24.0510
53.8	148.286	-24.9288
55.2	148.182	-25.6784
57	148.047	-26.5977
59	147.896	-27.5524
60.8	147.760	-28.3742
62.2	147.656	-28.9880
64	147.523	-29.7516
66	147.377	-30.5596
68	147.233	-31.3192
70	147.090	-32.0368
72	146.947	-32.7247
74	146.807	-33.3811
76.2	146.657	-34.0537
78.8	146.487	-34.7880
81.2	146.332	-35.4287
83.8	146.165	-36.0798
86.2	146.010	-36.6482
88.5	145.863	-37.1642
91.2	145.687	-37.7200
93.8	145.513	-38.2056
96.2	145.358	-38.6327
98.8	145.192	-39.0791
101.5	145.023	-39.4995
104.4	144.849	-39.9092
107.5	144.669	-40.3060
110.6	144.495	-40.6703
113.8	144.322	-41.0254
117.2	144.140	-41.3607
120.6	143.956	-41.6516
124.1	143.765	-41.9214
126.5	143.634	-42.0765
131.5	143.360	-42.3441
134	143.222	-42.4495
138	143.004	-42.5664
143	142.738	-42.6376
147.5	142.507	-42.6041
152.5	142.269	-42.4687
157.5	142.066	-42.2767
162.5	141.884	-41.9663
167.5	141.723	-41.6542
172.5	141.578	-41.4264
177.5	141.445	-41.2645
182.5	141.319	-41.1690
187.5	141.193	-41.1415
192.5	141.057	-41.1481
197.5	140.908	-41.1558
203	140.736	-41.1740
209	140.548	-41.1188
214	140.390	-40.9977
220	140.201	-40.8263
227	139.985	-40.5778
233	139.805	-40.2972
240	139.602	-39.9011
247	139.405	-39.4520
254	139.221	-38.9425
262	139.029	-38.2885
269	138.883	-37.7064
276	138.756	-37.1810
285	138.604	-36.6857
295	138.424	-36.2361
304	138.254	-35.8197
311	138.121	-35.4415
320	137.951	-34.8993
330	137.769	-34.2635
340	137.594	-33.5760
350	137.428	-32.8149
360	137.272	-32.0176
370	137.134	-31.1971
382	136.987	-30.2552
395	136.842	-29.3027
406	136.724	-28.5333
418	136.597	-27.6849
431	136.468	-26.7673
444	136.349	-25.8304
455	136.257	-25.0153
468	136.152	-24.0503
482	136.045	-23.0101
494	135.959	-22.1157
508	135.862	-21.0685
522	135.770	-20.0214
538	135.675	-18.8413
552	135.600	-17.8047
570	135.514	-16.4681
590	135.431	-14.9848
608	135.375	-13.6615
622	135.346	-12.6490
640	135.325	-11.3610
660	135.311	-9.9602
680	135.305	-8.6162
700	135.306	-7.4011
720	135.296	-6.4412
740	135.213	-5.7352
762	134.960	-4.2879
788	134.759	-0.1582
812	134.940	3.5135
838	135.185	5.9749
862	135.354	7.8273
885	135.501	9.5639
912	135.678	11.5995
938	135.860	13.5477
962	136.032	15.2953
988	136.217	17.0986
1015	136.418	18.8529
1044	136.652	20.5620
1075	136.913	22.1746
1106	137.172	23.5536
1138	137.434	24.7295
1172	137.710	25.7297
1206	137.984	26.5178
1241	138.271	27.1515
1265	138.467	27.5116
1315	138.865	28.1426
1340	139.063	28.4212
1380	139.401	28.8261
1430	139.857	29.2706
1475	140.282	29.5797
1525	140.770	29.7541
1575	141.270	29.6512
1625	141.774	29.1857
1675	142.268	28.3236
1725	142.735	27.0834
1775	143.163	25.5183
1825	143.553	23.6806
1875	143.904	21.6049
1925	144.220	19.3209
1975	144.501	16.8510
2030	144.756	13.9657
2090	144.957	10.7013
2140	145.057	7.9598
2200	145.096	4.7464
2270	145.037	1.2532
2330	144.910	-1.4084
2400	144.689	-4.0260
2470	144.401	-6.0681
2540	144.072	-7.5380
2620	143.683	-8.5687
2690	143.350	-8.9677
2760	143.033	-8.9600
2850	142.658	-8.4566
2950	142.300	-7.3793
3040	142.033	-6.0718
3110	141.863	-4.8898
3200	141.691	-3.2249
3300	141.543	-1.2633
3400	141.406	0.9597
3500	141.347	3.9615
3600	141.478	6.8499
3700	141.674	9.1243
3820	141.952	11.5064
3950	142.340	13.7859
4060	142.743	15.3925
4180	143.257	16.6706
4310	143.899	17.3455
4440	144.637	17.0212
4550	145.300	15.6289
4680	146.043	12.3620
4820	146.666	6.8363
4940	146.946	0.7972
5080	146.901	-6.8426
5220	146.457	-13.8809
5380	145.574	-19.8982
5520	144.594	-22.8762
5700	143.267	-23.0470
5900	142.234	-20.9912
6080	141.385	-19.0706
6220	140.765	-16.3976
6400	140.169	-11.9412
6600	139.813	-6.4538
6800	139.749	-0.9259
7000	139.950	4.3048
7200	140.479	8.7092
7400	141.399	11.3491
7620	142.800	10.4616
7880	144.459	0.8256
8120	144.957	-16.8569
8380	143.651	-35.8014
8620	141.280	-44.1933
8850	138.870	-44.3055
9120	136.539	-38.6946
9380	134.913	-30.4286
9620	133.857	-21.5490
9880	133.091	-11.0435
10150	132.717	0.5710
10440	132.874	13.0175
10750	133.649	25.2107
11060	135.178	35.8291
11380	137.762	42.5435
11720	140.870	37.3651
12060	142.271	13.8477
12410	140.645	-10.4298
12650	138.363	-16.3442
13150	133.799	-9.3224
13400	132.362	-2.0333
13800	131.372	10.3190
14300	132.140	22.8373
14750	133.801	24.6984
15250	134.481	21.1213
15750	136.462	22.4305
16250	136.956	1.4883
16750	135.245	-13.7088
17250	133.122	-17.2833
17750	131.840	-20.0426
18250	130.094	-24.1872
18750	127.518	-21.2711
19250	124.950	-12.9857
19750	122.891	-3.3551

File: KZ EDX Pro (Low-Density Tuning Foam) L.txt
* Measurement data measured by REW V5.20.4
* Source: Input device not selected, no input selected, L, volume: no control
* Format: 256k Log Swept Sine, 1 sweep at -12,0 dBFS with no timing reference
* Dated: 2021-dec-13 17:39:37
* REW Settings:
*  C-weighting compensation: Off
*  Target level: 75.0 dB
* Note: Stock tips M + stock cable 3.5mm  Left  Low-density tuning foam
* Measurement: KZ EDX Pro low-DensityFoaml
* Smoothing: 1/12 octave
* Frequency Step: 1/48 octave
* Start Frequency: 20.300 Hz
*
* Freq(Hz)	SPL(dB)	Phase(degrees)
20.3	150.481	6.3921
20.9	150.457	5.7526
21.4	150.428	4.9438
22	150.401	3.9672
22.7	150.374	2.8696
23.3	150.349	1.9789
24	150.316	0.9810
24.7	150.279	0.0108
25.4	150.241	-0.9365
26.2	150.201	-1.9991
26.9	150.164	-2.8948
27.6	150.125	-3.7417
28.5	150.073	-4.8056
29.5	150.004	-5.9837
30.4	149.937	-6.9758
31.1	149.890	-7.7192
32	149.833	-8.6773
33	149.769	-9.7165
34	149.704	-10.6995
35	149.637	-11.6406
36	149.569	-12.5581
37	149.503	-13.4292
38.2	149.413	-14.3645
39.5	149.312	-15.2804
40.6	149.241	-16.2353
41.8	149.159	-17.3182
43.1	149.072	-18.3061
44.4	148.984	-19.2241
45.5	148.912	-19.9794
46.8	148.825	-20.8377
48.2	148.727	-21.7335
49.4	148.642	-22.4845
50.8	148.543	-23.3281
52.2	148.440	-24.1195
53.8	148.321	-24.9823
55.2	148.214	-25.7171
57	148.075	-26.6258
59	147.923	-27.5751
60.8	147.788	-28.3919
62.2	147.684	-29.0105
64	147.551	-29.7602
66	147.402	-30.5424
68	147.255	-31.2927
70	147.111	-32.0081
72	146.967	-32.6888
74	146.825	-33.3222
76.2	146.673	-33.9835
78.8	146.502	-34.7186
81.2	146.347	-35.3689
83.8	146.179	-36.0272
86.2	146.021	-36.5699
88.5	145.873	-37.0309
91.2	145.695	-37.5754
93.8	145.519	-38.1029
96.2	145.362	-38.5335
98.8	145.193	-38.9547
101.5	145.017	-39.3700
104.4	144.836	-39.7492
107.5	144.655	-40.1085
110.6	144.484	-40.4461
113.8	144.311	-40.7504
117.2	144.126	-41.0500
120.6	143.944	-41.3254
124.1	143.763	-41.5594
126.5	143.635	-41.7089
131.5	143.369	-41.9655
134	143.236	-42.0815
138	143.021	-42.2528
143	142.750	-42.3474
147.5	142.507	-42.3517
152.5	142.248	-42.2235
157.5	142.010	-41.8751
162.5	141.817	-41.2332
167.5	141.695	-40.4881
172.5	141.632	-40.1943
177.5	141.562	-40.3815
182.5	141.443	-40.7306
187.5	141.286	-41.0164
192.5	141.111	-41.1648
197.5	140.931	-41.1466
203	140.734	-41.0460
209	140.524	-40.8707
214	140.353	-40.6512
220	140.152	-40.2916
227	139.938	-39.7363
233	139.786	-39.2059
240	139.644	-38.7314
247	139.504	-38.4887
254	139.343	-38.3012
262	139.149	-38.0000
269	138.978	-37.6690
276	138.812	-37.2889
285	138.608	-36.7580
295	138.392	-36.1224
304	138.207	-35.5287
311	138.070	-35.0413
320	137.902	-34.3680
330	137.725	-33.6010
340	137.558	-32.8229
350	137.406	-32.0252
360	137.264	-31.2539
370	137.126	-30.5081
382	136.968	-29.6203
395	136.809	-28.6360
406	136.683	-27.7946
418	136.551	-26.8790
431	136.420	-25.8647
444	136.302	-24.8528
455	136.211	-24.0018
468	136.110	-22.9952
482	136.006	-21.9184
494	135.918	-20.9849
508	135.820	-19.9017
522	135.730	-18.8195
538	135.636	-17.5836
552	135.561	-16.5015
570	135.475	-15.1088
590	135.392	-13.5628
608	135.333	-12.1903
622	135.305	-11.1288
640	135.284	-9.7811
660	135.271	-8.3334
680	135.265	-6.9635
700	135.265	-5.7174
720	135.252	-4.7176
740	135.158	-3.9484
762	134.892	-2.2740
788	134.724	2.1328
812	134.928	5.7301
838	135.167	8.1569
862	135.335	10.0516
885	135.481	11.8555
912	135.657	13.9850
938	135.840	16.0137
962	136.013	17.8243
988	136.199	19.7048
1015	136.400	21.5387
1044	136.635	23.3345
1075	136.896	25.0482
1106	137.152	26.5338
1138	137.410	27.8237
1172	137.684	28.9543
1206	137.959	29.8862
1241	138.245	30.6973
1265	138.440	31.1898
1315	138.838	32.1136
1340	139.040	32.5419
1380	139.384	33.2070
1430	139.852	34.0046
1475	140.295	34.6513
1525	140.810	35.2295
1575	141.345	35.5572
1625	141.895	35.5303
1675	142.449	35.1045
1725	142.990	34.2836
1775	143.507	33.0854
1825	143.999	31.5477
1875	144.465	29.6835
1925	144.907	27.4916
1975	145.320	24.9768
2030	145.722	21.8640
2090	146.075	18.1027
2140	146.287	14.7608
2200	146.433	10.6547
2270	146.452	5.9873
2330	146.354	2.3068
2400	146.125	-1.4167
2470	145.795	-4.4135
2540	145.402	-6.6554
2620	144.928	-8.3550
2690	144.516	-9.1702
2760	144.121	-9.4541
2850	143.654	-9.1733
2950	143.202	-8.2171
3040	142.861	-6.9195
3110	142.640	-5.6966
3200	142.407	-3.9269
3300	142.202	-1.7774
3400	142.032	0.6910
3500	141.958	3.8044
3600	142.051	6.7314
3700	142.200	9.1659
3820	142.431	11.8830
3950	142.785	14.6304
4060	143.176	16.6856
4180	143.693	18.4902
4310	144.360	19.7656
4440	145.149	20.1177
4550	145.891	19.3175
4680	146.778	16.6193
4820	147.599	11.2822
4940	148.048	4.8941
5080	148.155	-3.6882
5220	147.789	-11.9363
5380	146.906	-19.2135
5520	145.877	-22.9732
5700	144.459	-23.6915
5900	143.339	-21.7536
6080	142.461	-19.6391
6220	141.865	-16.8064
6400	141.345	-12.3608
6600	141.098	-7.1739
6800	141.161	-2.2306
7000	141.509	2.1041
7200	142.228	5.1847
7400	143.379	5.4825
7620	144.868	-0.4923
7880	145.789	-18.8360
8120	144.802	-38.8008
8380	142.120	-50.3456
8620	139.314	-50.9258
8850	137.040	-46.2556
9120	135.067	-37.5866
9380	133.747	-27.6040
9620	132.922	-17.6008
9880	132.371	-6.1485
10150	132.205	6.2417
10440	132.587	19.4247
10750	133.664	32.3935
11060	135.661	43.5328
11380	138.893	49.5751
11720	142.346	39.6774
12060	143.241	9.6026
12410	140.689	-13.0673
12650	137.995	-15.4618
13150	133.441	-3.7783
13400	132.239	4.6877
13800	131.710	18.1750
14300	133.223	31.1537
14750	135.613	31.3895
15250	136.816	21.4390
15750	138.336	11.8813
16250	137.522	-11.9007
16750	135.073	-24.7088
17250	132.323	-27.6917
17750	130.057	-25.9917
18250	127.923	-22.5579
18750	125.640	-13.8623
19250	123.657	-2.3336
19750	122.191	8.9946