Folder: IEM-Database-Project/output/txt/rg

Note: output/txt/rg/7hz Legato (250 mesh) L.txt
* Measurement data measured by REW V5.20.4
* Source: Input device not selected, no input selected, L, volume: no control
* Format: 256k Log Swept Sine, 1 sweep at -12,0 dBFS with no timing reference
* Dated: 2023-apr-15 18:53:05
* REW Settings:
*  C-weighting compensation: Off
*  Target level: 75.0 dB
* Note: stock tips M (black stems) + stock cable 3.5mm 4.5mm 250 mesh on nozzle (applied over stock)  Left
* Measurement: 7hz Legato 250 mesh
* Smoothing: 1/48 octave
* Frequency Step: 1/48 octave
* Start Frequency: 20.300 Hz
*
* Freq(Hz)	SPL(dB)	Phase(degrees)
20.299999	96.650	-2.1841
20.600000	96.621	-2.7106
20.900000	96.585	-3.2272
21.200001	96.550	-3.7421
21.400000	96.531	-4.0887
21.799999	96.500	-4.7909
22.000000	96.488	-5.1462
22.400000	96.465	-5.8614
22.700001	96.450	-6.3967
23.000000	96.434	-6.9243
23.299999	96.415	-7.4351
23.600000	96.392	-7.9201
24.000000	96.357	-8.5157
24.299999	96.329	-8.9247
24.700001	96.292	-9.4387
25.000000	96.266	-9.8261
25.400000	96.235	-10.3801
25.799999	96.203	-10.9952
26.200001	96.166	-11.6501
26.500000	96.135	-12.1361
26.900000	96.092	-12.7400
27.200001	96.062	-13.1496
27.600000	96.031	-13.6545
28.000000	96.010	-14.1578
28.500000	95.985	-14.8403
29.000000	95.943	-15.5648
29.500000	95.879	-16.2502
30.000000	95.806	-16.8431
30.400000	95.756	-17.2742
30.700001	95.724	-17.5995
31.100000	95.686	-18.0609
31.500000	95.652	-18.5519
32.000000	95.607	-19.1691
32.500000	95.561	-19.7478
33.000000	95.516	-20.2881
33.500000	95.471	-20.8195
34.000000	95.422	-21.3558
34.500000	95.370	-21.8853
35.000000	95.319	-22.3992
35.500000	95.271	-22.9074
36.000000	95.226	-23.4201
36.500000	95.180	-23.9292
37.000000	95.130	-24.4187
37.500000	95.080	-24.8885
38.200001	95.009	-25.5444
38.700001	94.957	-26.0208
39.500000	94.874	-26.7623
40.000000	94.825	-27.2038
40.599998	94.768	-27.7256
41.200001	94.710	-28.2445
41.799999	94.649	-28.7489
42.500000	94.580	-29.3173
43.099998	94.524	-29.8024
43.700001	94.469	-30.2867
44.400002	94.402	-30.8378
45.000000	94.345	-31.2956
45.500000	94.297	-31.6675
46.200001	94.231	-32.1702
46.799999	94.176	-32.5897
47.500000	94.112	-33.0820
48.200001	94.045	-33.5738
48.700001	93.996	-33.9172
49.400002	93.929	-34.3926
50.000000	93.872	-34.8032
50.799999	93.795	-35.3421
51.500000	93.724	-35.7901
52.200001	93.651	-36.2124
53.000000	93.570	-36.6636
53.799999	93.495	-37.1105
54.500000	93.430	-37.5242
55.200001	93.363	-37.9489
56.000000	93.280	-38.4252
57.000000	93.171	-38.9688
58.000000	93.070	-39.4173
59.000000	92.988	-39.8870
60.000000	92.897	-40.4474
60.799999	92.814	-40.8727
61.500000	92.743	-41.2030
62.200001	92.678	-41.5262
63.000000	92.601	-41.8999
64.000000	92.499	-42.3093
65.000000	92.406	-42.6652
66.000000	92.324	-43.0893
67.000000	92.233	-43.5504
68.000000	92.134	-43.9510
69.000000	92.039	-44.3325
70.000000	91.951	-44.7260
71.000000	91.867	-45.1142
72.000000	91.776	-45.4705
73.000000	91.685	-45.7840
74.000000	91.600	-46.0954
75.000000	91.519	-46.4169
76.199997	91.417	-46.7863
77.500000	91.311	-47.1681
78.8000

Note: output/txt/rg/7hz Legato (inner vent blutack) L.txt
* Measurement data measured by REW V5.20.4
* Source: Input device not selected, no input selected, L, volume: no control
* Format: 256k Log Swept Sine, 1 sweep at -12,0 dBFS with no timing reference
* Dated: 2023-apr-15 17:00:50
* REW Settings:
*  C-weighting compensation: Off
*  Target level: 75.0 dB
* Note: stock tips M (black stems) + stock cable 3.5mm inner vent blocked with blutack  Left
* Measurement: 7hz Legato inner vent block
* Smoothing: 1/48 octave
* Frequency Step: 1/48 octave
* Start Frequency: 20.300 Hz
*
* Freq(Hz)	SPL(dB)	Phase(degrees)
20.299999	98.351	-22.1862
20.600000	98.306	-22.6044
20.900000	98.254	-23.0187
21.200001	98.204	-23.4413
21.400000	98.175	-23.7311
21.799999	98.120	-24.3228
22.000000	98.092	-24.6190
22.400000	98.036	-25.1956
22.700001	97.993	-25.6070
23.000000	97.951	-26.0030
23.299999	97.911	-26.3957
23.600000	97.872	-26.7967
24.000000	97.819	-27.3555
24.299999	97.778	-27.7887
24.700001	97.721	-28.3644
25.000000	97.675	-28.7755
25.400000	97.616	-29.2799
25.799999	97.559	-29.7377
26.200001	97.506	-30.1719
26.500000	97.467	-30.4989
26.900000	97.413	-30.9498
27.200001	97.369	-31.3006
27.600000	97.307	-31.7797
28.000000	97.242	-32.2617
28.500000	97.163	-32.8565
29.000000	97.087	-33.4350
29.500000	97.013	-33.9919
30.000000	96.942	-34.5237
30.400000	96.888	-34.9326
30.700001	96.848	-35.2326
31.100000	96.792	-35.6290
31.500000	96.736	-36.0258
32.000000	96.665	-36.5252
32.500000	96.594	-37.0246
33.000000	96.524	-37.5159
33.500000	96.455	-37.9956
34.000000	96.387	-38.4670
34.500000	96.320	-38.9350
35.000000	96.251	-39.3993
35.500000	96.181	-39.8536
36.000000	96.111	-40.2938
36.500000	96.042	-40.7223
37.000000	95.973	-41.1434
37.500000	95.904	-41.5578
38.200001	95.807	-42.1238
38.700001	95.739	-42.5216
39.500000	95.630	-43.1595
40.000000	95.561	-43.5543
40.599998	95.478	-44.0118
41.200001	95.396	-44.4514
41.799999	95.316	-44.8850
42.500000	95.223	-45.3874
43.099998	95.146	-45.8041
43.700001	95.070	-46.2040
44.400002	94.982	-46.6633
45.000000	94.907	-47.0603
45.500000	94.845	-47.3909
46.200001	94.758	-47.8438
46.799999	94.685	-48.2159
47.500000	94.600	-48.6287
48.200001	94.513	-49.0324
48.700001	94.449	-49.3270
49.400002	94.356	-49.7424
50.000000	94.276	-50.0797
50.799999	94.177	-50.5032
51.500000	94.095	-50.8774
52.200001	94.010	-51.2444
53.000000	93.911	-51.6286
53.799999	93.812	-52.0121
54.500000	93.724	-52.3650
55.200001	93.636	-52.7073
56.000000	93.538	-53.0749
57.000000	93.418	-53.5188
58.000000	93.298	-53.9568
59.000000	93.176	-54.3967
60.000000	93.056	-54.7851
60.799999	92.969	-55.0738
61.500000	92.893	-55.3518
62.200001	92.812	-55.6461
63.000000	92.713	-55.9574
64.000000	92.596	-56.3044
65.000000	92.490	-56.6551
66.000000	92.383	-57.0000
67.000000	92.270	-57.3270
68.000000	92.155	-57.6140
69.000000	92.048	-57.8945
70.000000	91.943	-58.2182
71.000000	91.836	-58.5333
72.000000	91.733	-58.8087
73.000000	91.635	-59.0812
74.000000	91.534	-59.3473
75.000000	91.433	-59.6047
76.199997	91.313	-59.9260
77.500000	91.188	-60.24

Note: README.md
# IEM Database Project
Databases and Information Systems (NDAB21010U) Project

### Credits:
Victor Villumsen Bergien | TCG780 | tcg780@alumni.ku.dk

### Introduction:
This project consists of a comprehensive (possibly the largest) database of IEM's (In-Ear Monitors).
Each IEM has the following data:

- IEM Name
- Brand
- Price ($)
- ANC Capability
- Sensitivity (dB/mW)
- Impedance (Î©)
- \# of Drivers
- Driver Configuration
- Connection Type
- Microphone
- IP Rating	
- Measurement(s)
- Misc Measurement(s) (DSP Modes)
- \# of Measurements
- Contributing Reviewers

From which the following can be calculated:

- Average Measurement
- Preference %
- Average  Error (dB)
- Slope of Error
- STDEV of Error
- Variance

### Dependencies:

### Installation:

### Note:

File: KZ EDX Pro (High-Density Tuning Foam) L.txt
* Measurement data measured by REW V5.20.4
* Source: Input device not selected, no input selected, L, volume: no control
* Format: 256k Log Swept Sine, 1 sweep at -12,0 dBFS with no timing reference
* Dated: 2021-dec-13 17:36:06
* REW Settings:
*  C-weighting compensation: Off
*  Target level: 75.0 dB
* Note: Stock tips M + stock cable 3.5mm  Left  High-density tuning foam
* Measurement: KZ EDX Pro High-DensityFoaml
* Smoothing: 1/12 octave
* Frequency Step: 1/48 octave
* Start Frequency: 20.300 Hz
*
* Freq(Hz)	SPL(dB)	Phase(degrees)
20.3	94.148	6.6418
20.9	94.126	6.0020
21.4	94.101	5.1970
22	94.076	4.2384
22.7	94.050	3.1697
23.3	94.027	2.2753
24	93.993	1.2296
24.7	93.952	0.2203
25.4	93.915	-0.7154
26.2	93.882	-1.7398
26.9	93.852	-2.6191
27.6	93.818	-3.4700
28.5	93.772	-4.5613
29.5	93.704	-5.7539
30.4	93.638	-6.7201
31.1	93.594	-7.4423
32	93.542	-8.3831
33	93.482	-9.4026
34	93.419	-10.3925
35	93.354	-11.3452
36	93.287	-12.2494
37	93.219	-13.1416
38.2	93.147	-14.2466
39.5	93.071	-15.4884
40.6	92.983	-16.2971
41.8	92.891	-17.0543
43.1	92.801	-17.9904
44.4	92.720	-18.9173
45.5	92.649	-19.6734
46.8	92.561	-20.5425
48.2	92.466	-21.4398
49.4	92.383	-22.1697
50.8	92.284	-22.9923
52.2	92.184	-23.8036
53.8	92.068	-24.6968
55.2	91.965	-25.4372
57	91.831	-26.3435
59	91.682	-27.3134
60.8	91.548	-28.1396
62.2	91.444	-28.7394
64	91.312	-29.4840
66	91.167	-30.2797
68	91.025	-31.0375
70	90.885	-31.7616
72	90.745	-32.4454
74	90.605	-33.0874
76.2	90.455	-33.7666
78.8	90.285	-34.5306
81.2	90.133	-35.1713
83.8	89.969	-35.8253
86.2	89.814	-36.3931
88.5	89.660	-36.9308
91.2	89.483	-37.5074
93.8	89.318	-37.9800
96.2	89.167	-38.4060
98.8	89.004	-38.8588
101.5	88.836	-39.2725
104.4	88.657	-39.6725
107.5	88.472	-40.0779
110.6	88.295	-40.4320
113.8	88.119	-40.7325
117.2	87.935	-40.9961
120.6	87.752	-41.2208
124.1	87.574	-41.4750
126.5	87.452	-41.6351
131.5	87.198	-41.9410
134	87.071	-42.0850
138	86.862	-42.2716
143	86.599	-42.4201
147.5	86.366	-42.4893
152.5	86.123	-42.4884
157.5	85.896	-42.3428
162.5	85.682	-41.9828
167.5	85.504	-41.4430
172.5	85.385	-40.9438
177.5	85.300	-40.7286
182.5	85.210	-40.8183
187.5	85.087	-41.0446
192.5	84.934	-41.2320
197.5	84.766	-41.3081
203	84.579	-41.2926
209	84.375	-41.2265
214	84.208	-41.0901
220	84.012	-40.8326
227	83.793	-40.4145
233	83.617	-39.9755
240	83.445	-39.4224
247	83.302	-38.9876
254	83.159	-38.7449
262	82.979	-38.5266
269	82.812	-38.2754
276	82.643	-37.9488
285	82.441	-37.4566
295	82.225	-36.8630
304	82.040	-36.2764
311	81.903	-35.7852
320	81.739	-35.1357
330	81.565	-34.4050
340	81.406	-33.6537
350	81.258	-32.9252
360	81.118	-32.2217
370	80.981	-31.5364
382	80.821	-30.7075
395	80.661	-29.7965
406	80.533	-29.0025
418	80.398	-28.1304
431	80.266	-27.1789
444	80.145	-26.2099
455	80.050	-25.3973
468	79.946	-24.4354
482	79.845	-23.3898
494	79.758	-22.4946
508	79.659	-21.4507
522	79.568	-20.4090
538	79.473	-19.2259
552	79.398	-18.2070
570	79.312	-16.8995
590	79.228	-15.4323
608	79.171	-14.1215
622	79.145	-13.1154
640	79.121	-11.8379
660	79.106	-10.4587
680	79.103	-9.1323
700	79.105	-7.9445
720	79.095	-6.9928
740	79.019	-6.2943
762	78.779	-4.9542
788	78.559	-0.9639
812	78.725	2.7579
838	78.973	5.2358
862	79.145	7.0610
885	79.291	8.7819
912	79.466	10.7816
938	79.647	12.6778
962	79.820	14.3849
988	80.001	16.1526
1015	80.200	17.8638
1044	80.431	19.5294
1075	80.690	21.0905
1106	80.944	22.4234
1138	81.203	23.5403
1172	81.476	24.4701
1206	81.747	25.1776
1241	82.031	25.7377
1265	82.225	26.0533
1315	82.615	26.5737
1340	82.810	26.7885
1380	83.142	27.0895
1430	83.588	27.3967
1475	84.000	27.5629
1525	84.471	27.5620
1575	84.950	27.2763
1625	85.426	26.6295
1675	85.886	25.6015
1725	86.311	24.2164
1775	86.692	22.5411
1825	87.030	20.6319
1875	87.326	18.5326
1925	87.583	16.2803
1975	87.805	13.9122
2030	87.998	11.2179
2090	88.136	8.2466
2140	88.192	5.8094
2200	88.188	3.0234
2270	88.097	0.0727
2330	87.959	-2.1217
2400	87.743	-4.2202
2470	87.473	-5.8090
2540	87.170	-6.8960
2620	86.819	-7.5731
2690	86.523	-7.7308
2760	86.242	-7.5384
2850	85.912	-6.8638
2950	85.600	-5.6704
3040	85.371	-4.2927
3110	85.227	-3.0783
3200	85.082	-1.3879
3300	84.962	0.6116
3400	84.856	2.8770
3500	84.833	5.9210
3600	85.010	8.7748
3700	85.241	10.9072
3820	85.548	13.1117
3950	85.961	15.1969
4060	86.384	16.6208
4180	86.918	17.6590
4310	87.573	17.9548
4440	88.288	17.1659
4550	88.909	15.4504
4680	89.585	11.9149
4820	90.118	6.2986
4940	90.319	0.4277
5080	90.202	-6.7223
5220	89.731	-13.1348
5380	88.865	-18.5432
5520	87.925	-21.1800
5700	86.654	-21.1885
5900	85.654	-19.0241
6080	84.837	-16.9546
6220	84.249	-14.2526
6400	83.680	-9.8632
6600	83.328	-4.3475
6800	83.284	1.3715
7000	83.537	6.7323
7200	84.124	11.0778
7400	85.090	13.5284
7620	86.527	12.3067
7880	88.177	1.9727
8120	88.571	-16.2006
8380	87.125	-34.5521
8620	84.710	-41.9091
8850	82.349	-41.3041
9120	80.126	-35.2311
9380	78.615	-26.7289
9620	77.669	-17.7457
9880	77.033	-7.2761
10150	76.801	4.1545
10440	77.135	16.3032
10750	78.170	27.8576
11060	80.046	36.9550
11380	82.843	39.8107
11720	85.431	27.0830
12060	85.590	0.7336
12410	83.001	-16.1606
12650	80.595	-17.3130
13150	76.596	-6.3516
13400	75.486	1.4267
13800	74.916	13.8153
14300	76.084	25.3279
14750	77.869	25.1143
15250	78.416	19.2281
15750	79.909	17.0374
16250	79.921	-1.4520
16750	78.346	-13.5114
17250	76.571	-17.5336
17750	75.341	-21.5591
18250	73.505	-25.5760
18750	70.949	-22.0743
19250	68.560	-14.1586
19750	66.717	-5.8468