Folder: IEM-Database-Project/output/csv/rg

Note: README.md
# IEM Database Project
Databases and Information Systems (NDAB21010U) Project

### Credits:
Victor Villumsen Bergien | TCG780 | tcg780@alumni.ku.dk

### Introduction:
This project consists of a comprehensive (possibly the largest) database of IEM's (In-Ear Monitors).
Each IEM has the following data:

- IEM Name
- Brand
- Price ($)
- ANC Capability
- Sensitivity (dB/mW)
- Impedance (Î©)
- \# of Drivers
- Driver Configuration
- Connection Type
- Microphone
- IP Rating	
- Measurement(s)
- Misc Measurement(s) (DSP Modes)
- \# of Measurements
- Contributing Reviewers

From which the following can be calculated:

- Average Measurement
- Preference %
- Average  Error (dB)
- Slope of Error
- STDEV of Error
- Variance

### Dependencies:

### Installation:

### Note:

File: KZ EDX Pro (High-Density Tuning Foam) L.csv
X,Y
20.3,94.148
20.9,94.126
21.4,94.101
22,94.076
22.7,94.050
23.3,94.027
24,93.993
24.7,93.952
25.4,93.915
26.2,93.882
26.9,93.852
27.6,93.818
28.5,93.772
29.5,93.704
30.4,93.638
31.1,93.594
32,93.542
33,93.482
34,93.419
35,93.354
36,93.287
37,93.219
38.2,93.147
39.5,93.071
40.6,92.983
41.8,92.891
43.1,92.801
44.4,92.720
45.5,92.649
46.8,92.561
48.2,92.466
49.4,92.383
50.8,92.284
52.2,92.184
53.8,92.068
55.2,91.965
57,91.831
59,91.682
60.8,91.548
62.2,91.444
64,91.312
66,91.167
68,91.025
70,90.885
72,90.745
74,90.605
76.2,90.455
78.8,90.285
81.2,90.133
83.8,89.969
86.2,89.814
88.5,89.660
91.2,89.483
93.8,89.318
96.2,89.167
98.8,89.004
101.5,88.836
104.4,88.657
107.5,88.472
110.6,88.295
113.8,88.119
117.2,87.935
120.6,87.752
124.1,87.574
126.5,87.452
131.5,87.198
134,87.071
138,86.862
143,86.599
147.5,86.366
152.5,86.123
157.5,85.896
162.5,85.682
167.5,85.504
172.5,85.385
177.5,85.300
182.5,85.210
187.5,85.087
192.5,84.934
197.5,84.766
203,84.579
209,84.375
214,84.208
220,84.012
227,83.793
233,83.617
240,83.445
247,83.302
254,83.159
262,82.979
269,82.812
276,82.643
285,82.441
295,82.225
304,82.040
311,81.903
320,81.739
330,81.565
340,81.406
350,81.258
360,81.118
370,80.981
382,80.821
395,80.661
406,80.533
418,80.398
431,80.266
444,80.145
455,80.050
468,79.946
482,79.845
494,79.758
508,79.659
522,79.568
538,79.473
552,79.398
570,79.312
590,79.228
608,79.171
622,79.145
640,79.121
660,79.106
680,79.103
700,79.105
720,79.095
740,79.019
762,78.779
788,78.559
812,78.725
838,78.973
862,79.145
885,79.291
912,79.466
938,79.647
962,79.820
988,80.001
1015,80.200
1044,80.431
1075,80.690
1106,80.944
1138,81.203
1172,81.476
1206,81.747
1241,82.031
1265,82.225
1315,82.615
1340,82.810
1380,83.142
1430,83.588
1475,84.000
1525,84.471
1575,84.950
1625,85.426
1675,85.886
1725,86.311
1775,86.692
1825,87.030
1875,87.326
1925,87.583
1975,87.805
2030,87.998
2090,88.136
2140,88.192
2200,88.188
2270,88.097
2330,87.959
2400,87.743
2470,87.473
2540,87.170
2620,86.819
2690,86.523
2760,86.242
2850,85.912
2950,85.600
3040,85.371
3110,85.227
3200,85.082
3300,84.962
3400,84.856
3500,84.833
3600,85.010
3700,85.241
3820,85.548
3950,85.961
4060,86.384
4180,86.918
4310,87.573
4440,88.288
4550,88.909
4680,89.585
4820,90.118
4940,90.319
5080,90.202
5220,89.731
5380,88.865
5520,87.925
5700,86.654
5900,85.654
6080,84.837
6220,84.249
6400,83.680
6600,83.328
6800,83.284
7000,83.537
7200,84.124
7400,85.090
7620,86.527
7880,88.177
8120,88.571
8380,87.125
8620,84.710
8850,82.349
9120,80.126
9380,78.615
9620,77.669
9880,77.033
10150,76.801
10440,77.135
10750,78.170
11060,80.046
11380,82.843
11720,85.431
12060,85.590
12410,83.001
12650,80.595
13150,76.596
13400,75.486
13800,74.916
14300,76.084
14750,77.869
15250,78.416
15750,79.909
16250,79.921
16750,78.346
17250,76.571
17750,75.341
18250,73.505
18750,70.949
19250,68.560
19750,66.717